"PhillipsElectricUniWhiteIPA_50x - RawData"
"Wavelength nm.","Abs."
190.00,2.934
191.00,2.984
192.00,3.139
193.00,3.309
194.00,3.514
195.00,3.723
196.00,3.441
197.00,3.544
198.00,3.451
199.00,3.887
200.00,3.540
201.00,3.850
202.00,3.608
203.00,3.644
204.00,3.661
205.00,3.732
206.00,3.679
207.00,3.433
208.00,3.475
209.00,3.436
210.00,3.331
211.00,3.161
212.00,3.046
213.00,2.942
214.00,2.807
215.00,2.667
216.00,2.560
217.00,2.430
218.00,2.305
219.00,2.192
220.00,2.078
221.00,1.977
222.00,1.877
223.00,1.780
224.00,1.684
225.00,1.590
226.00,1.500
227.00,1.406
228.00,1.318
229.00,1.237
230.00,1.163
231.00,1.096
232.00,1.037
233.00,0.985
234.00,0.940
235.00,0.901
236.00,0.867
237.00,0.839
238.00,0.816
239.00,0.798
240.00,0.784
241.00,0.773
242.00,0.766
243.00,0.762
244.00,0.760
245.00,0.759
246.00,0.761
247.00,0.763
248.00,0.766
249.00,0.770
250.00,0.774
251.00,0.779
252.00,0.785
253.00,0.790
254.00,0.796
255.00,0.801
256.00,0.806
257.00,0.810
258.00,0.813
259.00,0.815
260.00,0.815
261.00,0.816
262.00,0.817
263.00,0.817
264.00,0.817
265.00,0.815
266.00,0.814
267.00,0.812
268.00,0.809
269.00,0.804
270.00,0.797
271.00,0.787
272.00,0.776
273.00,0.763
274.00,0.749
275.00,0.735
276.00,0.719
277.00,0.703
278.00,0.685
279.00,0.667
280.00,0.648
281.00,0.627
282.00,0.606
283.00,0.583
284.00,0.560
285.00,0.536
286.00,0.513
287.00,0.490
288.00,0.467
289.00,0.444
290.00,0.419
291.00,0.396
292.00,0.376
293.00,0.358
294.00,0.343
295.00,0.330
296.00,0.319
297.00,0.309
298.00,0.301
299.00,0.293
300.00,0.286
301.00,0.281
302.00,0.276
303.00,0.272
304.00,0.268
305.00,0.265
306.00,0.262
307.00,0.259
308.00,0.257
309.00,0.255
310.00,0.253
311.00,0.252
312.00,0.250
313.00,0.248
314.00,0.246
315.00,0.245
316.00,0.243
317.00,0.242
318.00,0.240
319.00,0.238
320.00,0.236
321.00,0.234
322.00,0.231
323.00,0.229
324.00,0.227
325.00,0.224
326.00,0.221
327.00,0.218
328.00,0.214
329.00,0.210
330.00,0.207
331.00,0.202
332.00,0.198
333.00,0.194
334.00,0.190
335.00,0.186
336.00,0.182
337.00,0.178
338.00,0.173
339.00,0.168
340.00,0.164
341.00,0.159
342.00,0.154
343.00,0.150
344.00,0.145
345.00,0.141
346.00,0.137
347.00,0.133
348.00,0.129
349.00,0.125
350.00,0.121
351.00,0.117
352.00,0.114
353.00,0.110
354.00,0.107
355.00,0.104
356.00,0.101
357.00,0.097
358.00,0.094
359.00,0.091
360.00,0.089
361.00,0.086
362.00,0.084
363.00,0.082
364.00,0.079
365.00,0.077
366.00,0.075
367.00,0.073
368.00,0.071
369.00,0.070
370.00,0.068
371.00,0.066
372.00,0.065
373.00,0.063
374.00,0.061
375.00,0.060
376.00,0.058
377.00,0.057
378.00,0.055
379.00,0.054
380.00,0.053
381.00,0.051
382.00,0.050
383.00,0.049
384.00,0.048
385.00,0.047
386.00,0.046
387.00,0.044
388.00,0.043
389.00,0.042
390.00,0.041
391.00,0.040
392.00,0.040
393.00,0.039
394.00,0.038
395.00,0.037
396.00,0.036
397.00,0.035
398.00,0.035
399.00,0.034
400.00,0.033
401.00,0.033
402.00,0.032
403.00,0.031
404.00,0.031
405.00,0.030
406.00,0.030
407.00,0.029
408.00,0.029
409.00,0.028
410.00,0.028
411.00,0.027
412.00,0.027
413.00,0.026
414.00,0.026
415.00,0.025
416.00,0.025
417.00,0.025
418.00,0.024
419.00,0.024
420.00,0.024
421.00,0.023
422.00,0.023
423.00,0.023
424.00,0.023
425.00,0.022
426.00,0.022
427.00,0.022
428.00,0.021
429.00,0.021
430.00,0.021
431.00,0.021
432.00,0.020
433.00,0.020
434.00,0.020
435.00,0.020
436.00,0.019
437.00,0.019
438.00,0.019
439.00,0.019
440.00,0.019
441.00,0.018
442.00,0.018
443.00,0.018
444.00,0.018
445.00,0.018
446.00,0.018
447.00,0.018
448.00,0.017
449.00,0.017
450.00,0.017
451.00,0.017
452.00,0.017
453.00,0.017
454.00,0.016
455.00,0.016
456.00,0.016
457.00,0.016
458.00,0.016
459.00,0.016
460.00,0.016
461.00,0.016
462.00,0.016
463.00,0.015
464.00,0.015
465.00,0.015
466.00,0.015
467.00,0.015
468.00,0.015
469.00,0.015
470.00,0.015
471.00,0.014
472.00,0.014
473.00,0.014
474.00,0.014
475.00,0.014
476.00,0.014
477.00,0.014
478.00,0.014
479.00,0.014
480.00,0.014
481.00,0.013
482.00,0.013
483.00,0.013
484.00,0.013
485.00,0.013
486.00,0.013
487.00,0.013
488.00,0.013
489.00,0.013
490.00,0.013
491.00,0.012
492.00,0.012
493.00,0.012
494.00,0.012
495.00,0.012
496.00,0.012
497.00,0.012
498.00,0.012
499.00,0.012
500.00,0.012
501.00,0.012
502.00,0.012
503.00,0.012
504.00,0.012
505.00,0.011
506.00,0.011
507.00,0.011
508.00,0.011
509.00,0.011
510.00,0.011
511.00,0.011
512.00,0.011
513.00,0.011
514.00,0.011
515.00,0.011
516.00,0.011
517.00,0.011
518.00,0.010
519.00,0.010
520.00,0.010
521.00,0.010
522.00,0.010
523.00,0.010
524.00,0.010
525.00,0.010
526.00,0.010
527.00,0.010
528.00,0.010
529.00,0.010
530.00,0.010
531.00,0.009
532.00,0.009
533.00,0.009
534.00,0.009
535.00,0.009
536.00,0.009
537.00,0.009
538.00,0.009
539.00,0.009
540.00,0.009
541.00,0.009
542.00,0.009
543.00,0.009
544.00,0.008
545.00,0.008
546.00,0.008
547.00,0.008
548.00,0.008
549.00,0.008
550.00,0.008
551.00,0.008
552.00,0.008
553.00,0.008
554.00,0.008
555.00,0.008
556.00,0.008
557.00,0.008
558.00,0.008
559.00,0.008
560.00,0.007
561.00,0.007
562.00,0.007
563.00,0.007
564.00,0.007
565.00,0.007
566.00,0.007
567.00,0.007
568.00,0.007
569.00,0.007
570.00,0.007
571.00,0.007
572.00,0.007
573.00,0.007
574.00,0.007
575.00,0.007
576.00,0.007
577.00,0.007
578.00,0.007
579.00,0.006
580.00,0.006
581.00,0.006
582.00,0.006
583.00,0.006
584.00,0.006
585.00,0.006
586.00,0.006
587.00,0.006
588.00,0.006
589.00,0.006
590.00,0.006
591.00,0.006
592.00,0.006
593.00,0.006
594.00,0.006
595.00,0.006
596.00,0.006
597.00,0.006
598.00,0.006
599.00,0.006
600.00,0.006
601.00,0.006
602.00,0.006
603.00,0.006
604.00,0.006
605.00,0.006
606.00,0.006
607.00,0.006
608.00,0.005
609.00,0.005
610.00,0.005
611.00,0.005
612.00,0.005
613.00,0.005
614.00,0.005
615.00,0.005
616.00,0.005
617.00,0.005
618.00,0.005
619.00,0.005
620.00,0.005
621.00,0.005
622.00,0.005
623.00,0.005
624.00,0.005
625.00,0.005
626.00,0.005
627.00,0.005
628.00,0.005
629.00,0.005
630.00,0.004
631.00,0.004
632.00,0.004
633.00,0.004
634.00,0.004
635.00,0.004
636.00,0.004
637.00,0.004
638.00,0.004
639.00,0.004
640.00,0.004
641.00,0.004
642.00,0.004
643.00,0.004
644.00,0.004
645.00,0.004
646.00,0.004
647.00,0.004
648.00,0.004
649.00,0.004
650.00,0.004
651.00,0.004
652.00,0.004
653.00,0.004
654.00,0.004
655.00,0.004
656.00,0.004
657.00,0.004
658.00,0.004
659.00,0.004
660.00,0.004
661.00,0.004
662.00,0.004
663.00,0.004
664.00,0.004
665.00,0.003
666.00,0.003
667.00,0.003
668.00,0.003
669.00,0.003
670.00,0.003
671.00,0.003
672.00,0.003
673.00,0.003
674.00,0.003
675.00,0.003
676.00,0.003
677.00,0.003
678.00,0.003
679.00,0.003
680.00,0.003
681.00,0.003
682.00,0.003
683.00,0.003
684.00,0.003
685.00,0.003
686.00,0.003
687.00,0.003
688.00,0.003
689.00,0.003
690.00,0.003
691.00,0.003
692.00,0.003
693.00,0.003
694.00,0.003
695.00,0.003
696.00,0.003
697.00,0.003
698.00,0.003
699.00,0.003
700.00,0.003
701.00,0.003
702.00,0.003
703.00,0.003
704.00,0.003
705.00,0.003
706.00,0.003
707.00,0.003
708.00,0.003
709.00,0.003
710.00,0.003
711.00,0.003
712.00,0.004
713.00,0.004
714.00,0.004
715.00,0.004
716.00,0.004
717.00,0.004
718.00,0.004
719.00,0.005
720.00,0.005
721.00,0.005
722.00,0.005
723.00,0.005
724.00,0.006
725.00,0.006
726.00,0.006
727.00,0.007
728.00,0.007
729.00,0.007
730.00,0.008
731.00,0.008
732.00,0.009
733.00,0.009
734.00,0.010
735.00,0.010
736.00,0.010
737.00,0.010
738.00,0.011
739.00,0.011
740.00,0.011
741.00,0.011
742.00,0.011
743.00,0.011
744.00,0.011
745.00,0.011
746.00,0.011
747.00,0.011
748.00,0.011
749.00,0.011
750.00,0.011
751.00,0.011
752.00,0.011
753.00,0.011
754.00,0.011
755.00,0.011
756.00,0.010
757.00,0.010
758.00,0.010
759.00,0.010
760.00,0.011
761.00,0.010
762.00,0.010
763.00,0.010
764.00,0.010
765.00,0.010
766.00,0.010
767.00,0.010
768.00,0.010
769.00,0.010
770.00,0.010
771.00,0.010
772.00,0.010
773.00,0.010
774.00,0.010
775.00,0.010
776.00,0.009
777.00,0.009
778.00,0.009
779.00,0.009
780.00,0.009
781.00,0.009
782.00,0.009
783.00,0.009
784.00,0.009
785.00,0.009
786.00,0.008
787.00,0.008
788.00,0.008
789.00,0.008
790.00,0.008
791.00,0.008
792.00,0.008
793.00,0.008
794.00,0.007
795.00,0.007
796.00,0.007
797.00,0.007
798.00,0.007
799.00,0.007
800.00,0.007
801.00,0.007
802.00,0.007
803.00,0.007
804.00,0.007
805.00,0.006
806.00,0.006
807.00,0.006
808.00,0.006
809.00,0.006
810.00,0.006
811.00,0.006
812.00,0.006
813.00,0.006
814.00,0.006
815.00,0.007
816.00,0.006
817.00,0.007
818.00,0.007
819.00,0.007
820.00,0.007
821.00,0.007
822.00,0.007
823.00,0.008
824.00,0.008
825.00,0.008
826.00,0.009
827.00,0.009
828.00,0.010
829.00,0.010
830.00,0.011
831.00,0.011
832.00,0.012
833.00,0.012
834.00,0.012
835.00,0.013
836.00,0.013
837.00,0.013
838.00,0.013
839.00,0.013
840.00,0.014
841.00,0.014
842.00,0.014
843.00,0.014
844.00,0.014
845.00,0.014
846.00,0.014
847.00,0.014
848.00,0.014
849.00,0.014
850.00,0.014
851.00,0.015
852.00,0.015
853.00,0.015
854.00,0.015
855.00,0.015
856.00,0.015
857.00,0.015
858.00,0.015
859.00,0.015
860.00,0.015
861.00,0.016
862.00,0.016
863.00,0.016
864.00,0.016
865.00,0.016
866.00,0.016
867.00,0.016
868.00,0.016
869.00,0.016
870.00,0.017
871.00,0.017
872.00,0.017
873.00,0.017
874.00,0.017
875.00,0.017
876.00,0.018
877.00,0.018
878.00,0.018
879.00,0.018
880.00,0.018
881.00,0.019
882.00,0.019
883.00,0.019
884.00,0.019
885.00,0.020
886.00,0.020
887.00,0.020
888.00,0.020
889.00,0.020
890.00,0.021
891.00,0.021
892.00,0.021
893.00,0.021
894.00,0.022
895.00,0.022
896.00,0.022
897.00,0.022
898.00,0.022
899.00,0.023
900.00,0.023
